{ "resourceType": "Bundle", "id": "useCase00", "meta": { "lastUpdated": "2023-11-26T12:00:00Z" }, "type": "collection", "entry": 
[
{
  "resourceType": "Patient",
  "id": "helen-miller",
  "name": [
    {
      "use": "official",
      "family": "Miller",
      "given": ["Helen"]
    }
  ],
  "gender": "female",
  "birthDate": "1942-01-01",
  "address": [
    {
      "city": "London",
      "country": "England"
    }
  ],
  "contact": [
    {
      "relationship": [
        {
          "coding": [
            {
              "code": "daughter"
            }
          ]
        }
      ],
      "name": {
        "family": "Miller",
        "given": ["Emily"]
      },
      "telecom": [
        {
          "system": "phone",
          "value": "+44-20-1234-5678",
          "use": "home"
        }
      ]
    }
  ]
},
{
  "resourceType": "Condition",
  "id": "hypertension",
  "clinicalStatus": {
    "coding": [
      {
        "system": "http://terminology.hl7.org/CodeSystem/condition-clinical",
        "code": "active"
      }
    ]
  },
  "verificationStatus": {
    "coding": [
      {
        "system": "http://terminology.hl7.org/CodeSystem/condition-ver-status",
        "code": "confirmed"
      }
    ]
  },
  "category": [
    {
      "coding": [
        {
          "system": "http://hl7.org/fhir/condition-category",
          "code": "problem-list-item"
        }
      ]
    }
  ],
  "code": {
    "coding": [
      {
        "system": "http://snomed.info/sct",
        "code": "38341003",
        "display": "Hypertensive disorder"
      }
    ],
    "text": "Stage 2 Hypertension"
  },
  "subject": {
    "reference": "Patient/helen-miller"
  },
  "onsetDateTime": "2023-08-01"
},
{
  "resourceType": "Condition",
  "id": "hyperlipidemia",
  "clinicalStatus": {
    "coding": [
      {
        "system": "http://terminology.hl7.org/CodeSystem/condition-clinical",
        "code": "active"
      }
    ]
  },
  "verificationStatus": {
    "coding": [
      {
        "system": "http://terminology.hl7.org/CodeSystem/condition-ver-status",
        "code": "confirmed"
      }
    ]
  },
  "code": {
    "coding": [
      {
        "system": "http://snomed.info/sct",
        "code": "55822004",
        "display": "Hyperlipidemia"
      }
    ]
  },
  "subject": {
    "reference": "Patient/helen-miller"
  },
  "onsetDateTime": "2018-05-15"
},
{
  "resourceType": "Condition",
  "id": "osteoarthritis",
  "clinicalStatus": {
    "coding": [
      {
        "system": "http://terminology.hl7.org/CodeSystem/condition-clinical",
        "code": "active"
      }
    ]
  },
  "verificationStatus": {
    "coding": [
      {
        "system": "http://terminology.hl7.org/CodeSystem/condition-ver-status",
        "code": "confirmed"
      }
    ]
  },
  "code": {
    "coding": [
      {
        "system": "http://snomed.info/sct",
        "code": "396275006",
        "display": "Osteoarthritis"
      }
    ]
  },
  "subject": {
    "reference": "Patient/helen-miller"
  },
  "onsetDateTime": "2010-09-01"
},
{
  "resourceType": "Observation",
  "id": "bp-reading-day1-morning",
  "status": "final",
  "category": [
    {
      "coding": [
        {
          "system": "http://terminology.hl7.org/CodeSystem/observation-category",
          "code": "vital-signs"
        }
      ]
    }
  ],
  "code": {
    "coding": [
      {
        "system": "http://loinc.org",
        "code": "85354-9",
        "display": "Blood pressure panel with all children optional"
      }
    ]
  },
  "subject": {
    "reference": "Patient/helen-miller"
  },
  "effectiveDateTime": "2023-10-01T08:00:00+01:00",
  "component": [
    {
      "code": {
        "coding": [
          {
            "system": "http://loinc.org",
            "code": "8480-6",
            "display": "Systolic blood pressure"
          }
        ]
      },
      "valueQuantity": {
        "value": 152,
        "unit": "mmHg",
        "system": "http://unitsofmeasure.org",
        "code": "mm[Hg]"
      }
    },
    {
      "code": {
        "coding": [
          {
            "system": "http://loinc.org",
            "code": "8462-4",
            "display": "Diastolic blood pressure"
          }
        ]
      },
      "valueQuantity": {
        "value": 88,
        "unit": "mmHg",
        "system": "http://unitsofmeasure.org",
        "code": "mm[Hg]"
      }
    }
  ]
},
{
  "resourceType": "Observation",
  "id": "bp-day1-evening",
  "status": "final",
  "category": [
    {
      "coding": [
        {
          "system": "http://terminology.hl7.org/CodeSystem/observation-category",
          "code": "vital-signs"
        }
      ]
    }
  ],
  "code": {
    "coding": [
      {
        "system": "http://loinc.org",
        "code": "85354-9",
        "display": "Blood pressure panel"
      }
    ]
  },
  "subject": {
    "reference": "Patient/helen-miller"
  },
  "effectiveDateTime": "2023-10-01T20:00:00+01:00",
  "component": [
    {
      "code": {
        "coding": [
          {
            "system": "http://loinc.org",
            "code": "8480-6",
            "display": "Systolic blood pressure"
          }
        ]
      },
      "valueQuantity": {
        "value": 150,
        "unit": "mmHg",
        "system": "http://unitsofmeasure.org",
        "code": "mm[Hg]"
      }
    },
    {
      "code": {
        "coding": [
          {
            "system": "http://loinc.org",
            "code": "8462-4",
            "display": "Diastolic blood pressure"
          }
        ]
      },
      "valueQuantity": {
        "value": 90,
        "unit": "mmHg",
        "system": "http://unitsofmeasure.org",
        "code": "mm[Hg]"
      }
    }
  ]
},
  {
      "resourceType": "Observation",
      "id": "bp-day2-morning",
      "status": "final",
      "category": [
        {
          "coding": [
            {
              "system": "http://terminology.hl7.org/CodeSystem/observation-category",
              "code": "vital-signs"
            }
          ]
        }
      ],
      "code": {
        "coding": [
          {
            "system": "http://loinc.org",
            "code": "85354-9",
            "display": "Blood pressure panel"
          }
        ]
      },
      "subject": {
        "reference": "Patient/helen-miller"
      },
      "effectiveDateTime": "2023-10-02T08:00:00+01:00",
      "component": [
        {
          "code": {
            "coding": [
              {
                "system": "http://loinc.org",
                "code": "8480-6",
                "display": "Systolic blood pressure"
              }
            ]
          },
          "valueQuantity": {
            "value": 148,
            "unit": "mmHg",
            "system": "http://unitsofmeasure.org",
            "code": "mm[Hg]"
          }
        },
        {
          "code": {
            "coding": [
              {
                "system": "http://loinc.org",
                "code": "8462-4",
                "display": "Diastolic blood pressure"
              }
            ]
          },
          "valueQuantity": {
            "value": 87,
            "unit": "mmHg",
            "system": "http://unitsofmeasure.org",
            "code": "mm[Hg]"
          }
        }
      ]
    },
  {
      "resourceType": "Observation",
      "id": "bp-day2-evening",
      "status": "final",
      "category": [
        {
          "coding": [
            {
              "system": "http://terminology.hl7.org/CodeSystem/observation-category",
              "code": "vital-signs"
            }
          ]
        }
      ],
      "code": {
        "coding": [
          {
            "system": "http://loinc.org",
            "code": "85354-9",
            "display": "Blood pressure panel"
          }
        ]
      },
      "subject": {
        "reference": "Patient/helen-miller"
      },
      "effectiveDateTime": "2023-10-02T20:00:00+01:00",
      "component": [
        {
          "code": {
            "coding": [
              {
                "system": "http://loinc.org",
                "code": "8480-6",
                "display": "Systolic blood pressure"
              }
            ]
          },
          "valueQuantity": {
            "value": 147,
            "unit": "mmHg",
            "system": "http://unitsofmeasure.org",
            "code": "mm[Hg]"
          }
        },
        {
          "code": {
            "coding": [
              {
                "system": "http://loinc.org",
                "code": "8462-4",
                "display": "Diastolic blood pressure"
              }
            ]
          },
          "valueQuantity": {
            "value": 88,
            "unit": "mmHg",
            "system": "http://unitsofmeasure.org",
            "code": "mm[Hg]"
          }
        }
      ]
    },
{
  "resourceType": "Observation",
  "id": "lipid-profile",
  "status": "final",
  "category": [
    {
      "coding": [
        {
          "system": "http://terminology.hl7.org/CodeSystem/observation-category",
          "code": "laboratory"
        }
      ]
    }
  ],
  "code": {
    "coding": [
      {
        "system": "http://loinc.org",
        "code": "2093-3",
        "display": "Total Cholesterol"
      }
    ]
  },
  "subject": {
    "reference": "Patient/helen-miller"
  },
  "effectiveDateTime": "2023-09-15",
  "valueQuantity": {
    "value": 6.2,
    "unit": "mmol/L",
    "system": "http://unitsofmeasure.org",
    "code": "mmol/L"
  },
  "interpretation": [
    {
      "coding": [
        {
          "system": "http://terminology.hl7.org/CodeSystem/v3-ObservationInterpretation",
          "code": "H",
          "display": "High"
        }
      ]
    }
  ]
},
{
  "resourceType": "MedicationRequest",
  "id": "medreq-amlodipine",
  "status": "active",
  "intent": "order",
  "medicationCodeableConcept": {
    "coding": [
      {
        "system": "http://www.nlm.nih.gov/research/umls/rxnorm",
        "code": "197361",
        "display": "Amlodipine 5 MG Oral Tablet"
      }
    ]
  },
  "subject": {
    "reference": "Patient/helen-miller"
  },
  "authoredOn": "2023-08-01",
  "dosageInstruction": [
    {
      "text": "Take 5 mg by mouth once daily in the morning",
      "timing": {
        "repeat": {
          "frequency": 1,
          "period": 1,
          "periodUnit": "d",
          "timeOfDay": ["08:00"]
        }
      },
      "route": {
        "coding": [
          {
            "system": "http://snomed.info/sct",
            "code": "26643006",
            "display": "Oral route"
          }
        ]
      },
      "doseAndRate": [
        {
          "doseQuantity": {
            "value": 5,
            "unit": "mg",
            "system": "http://unitsofmeasure.org",
            "code": "mg"
          }
        }
      ]
    }
  ]
},
{
  "resourceType": "MedicationRequest",
  "id": "medreq-lisinopril",
  "status": "active",
  "intent": "order",
  "medicationCodeableConcept": {
    "coding": [
      {
        "system": "http://www.nlm.nih.gov/research/umls/rxnorm",
        "code": "861223",
        "display": "Lisinopril 10 MG Oral Tablet"
      }
    ]
  },
  "subject": {
    "reference": "Patient/helen-miller"
  },
  "authoredOn": "2023-09-01",
  "dosageInstruction": [
    {
      "text": "Take 10 mg by mouth once daily in the evening",
      "timing": {
        "repeat": {
          "frequency": 1,
          "period": 1,
          "periodUnit": "d",
          "timeOfDay": ["20:00"]
        }
      },
      "route": {
        "coding": [
          {
            "system": "http://snomed.info/sct",
            "code": "26643006",
            "display": "Oral route"
          }
        ]
      },
      "doseAndRate": [
        {
          "doseQuantity": {
            "value": 10,
            "unit": "mg",
            "system": "http://unitsofmeasure.org",
            "code": "mg"
          }
        }
      ]
    }
  ]
},
{
  "resourceType": "MedicationRequest",
  "id": "medreq-simvastatin",
  "status": "active",
  "intent": "order",
  "medicationCodeableConcept": {
    "coding": [
      {
        "system": "http://www.nlm.nih.gov/research/umls/rxnorm",
        "code": "312961",
        "display": "Simvastatin 20 MG Oral Tablet"
      }
    ]
  },
  "subject": {
    "reference": "Patient/helen-miller"
  },
  "authoredOn": "2018-05-15",
  "dosageInstruction": [
    {
      "text": "Take 20 mg by mouth once daily at bedtime",
      "timing": {
        "repeat": {
          "frequency": 1,
          "period": 1,
          "periodUnit": "d",
          "when": ["HS"]
        }
      },
      "route": {
        "coding": [
          {
            "system": "http://snomed.info/sct",
            "code": "26643006",
            "display": "Oral route"
          }
        ]
      },
      "doseAndRate": [
        {
          "doseQuantity": {
            "value": 20,
            "unit": "mg",
            "system": "http://unitsofmeasure.org",
            "code": "mg"
          }
        }
      ]
    }
  ]
},
{
  "resourceType": "CarePlan",
  "id": "careplan-hypertension-management",
  "status": "active",
  "intent": "plan",
  "title": "Hypertension Management Plan",
  "description": "Care plan for managing helen's hypertension, including medication adherence, lifestyle modifications, and monitoring.",
  "subject": {
    "reference": "Patient/helen-miller"
  },
  "created": "2023-10-01",
  "author": {
    "reference": "Practitioner/gp-dr-johnson"
  },
  "activity": [
    {
      "detail": {
        "kind": "CommunicationRequest",
        "description": "Daily check-ins using the HeartWise Companion chatbot for medication reminders and health tips.",
        "status": "in-progress",
        "code": {
          "coding": [
            {
              "system": "http://loinc.org",
              "code": "8661-1",
              "display": "Counseling"
            }
          ]
        }
      }
    },
    {
      "detail": {
        "kind": "ServiceRequest",
        "description": "Encourage lifestyle modifications including dietary changes and physical activity.",
        "status": "in-progress",
        "code": {
          "coding": [
            {
              "system": "http://snomed.info/sct",
              "code": "304507003",
              "display": "Dietary education"
            }
          ]
        }
      }
    },
    {
      "detail": {
        "kind": "MedicationRequest",
        "description": "Continue medications as prescribed with emphasis on adherence.",
        "status": "in-progress",
        "productReference": {
          "reference": "MedicationRequest/medreq-amlodipine"
        }
      }
    }
  ]
},
{
  "resourceType": "Practitioner",
  "id": "gp-dr-johnson",
  "name": [
    {
      "family": "Johnson",
      "given": ["Elizabeth"],
      "prefix": ["Dr."]
    }
  ],
  "gender": "female",
  "telecom": [
    {
      "system": "phone",
      "value": "+44-20-8765-4321",
      "use": "work"
    }
  ],
  "address": [
    {
      "line": ["123 Health Street"],
      "city": "London",
      "country": "England"
    }
  ]
},
{
  "resourceType": "Communication",
  "id": "comm-weekly-summary",
  "status": "completed",
  "category": [
    {
      "coding": [
        {
          "system": "http://terminology.hl7.org/CodeSystem/communication-category",
          "code": "alert",
          "display": "Alert"
        }
      ]
    }
  ],
  "subject": {
    "reference": "Patient/helen-miller"
  },
  "sender": {
    "reference": "Patient/helen-miller"
  },
  "recipient": [
    {
      "reference": "Practitioner/gp-dr-johnson"
    }
  ],
  "sent": "2023-10-08T09:00:00+01:00",
  "payload": [
    {
      "contentString": "Weekly summary: Average BP readings are 151/88 mmHg. Medication adherence at 80%. Patient reports mild dizziness in the evenings. Plans to reduce salt intake and increase physical activity."
    }
  ]
},
{
  "resourceType": "AllergyIntolerance",
  "id": "no-known-allergies",
  "clinicalStatus": {
    "coding": [
      {
        "system": "http://terminology.hl7.org/CodeSystem/allergyintolerance-clinical",
        "code": "active"
      }
    ]
  },
  "verificationStatus": {
    "coding": [
      {
        "system": "http://terminology.hl7.org/CodeSystem/allergyintolerance-verification",
        "code": "confirmed"
      }
    ]
  },
  "code": {
    "coding": [
      {
        "system": "http://terminology.hl7.org/CodeSystem/allergyintolerance-code",
        "code": "716186003",
        "display": "No known allergy"
      }
    ],
    "text": "No known allergies"
  },
  "patient": {
    "reference": "Patient/helen-miller"
  },
  "recordedDate": "2023-08-01"
},
{
  "resourceType": "Goal",
  "id": "blood-pressure-control",
  "lifecycleStatus": "active",
  "description": {
    "text": "Achieve target blood pressure of <140/90 mmHg"
  },
  "subject": {
    "reference": "Patient/helen-miller"
  },
  "startDate": "2023-08-01",
  "target": [
    {
      "measure": {
        "coding": [
          {
            "system": "http://loinc.org",
            "code": "85354-9",
            "display": "Blood pressure panel"
          }
        ]
      },
      "detailQuantity": {
        "value": 140,
        "comparator": "<",
        "unit": "mmHg",
        "system": "http://unitsofmeasure.org",
        "code": "mm[Hg]"
      },
      "dueDate": "2023-12-01"
    }
  ]
}
]
}